{
  "resourceType": "Bundle",
  "id": "674670d3-d453-43f7-862d-dfc6000c8a8d",
  "meta": {
    "lastUpdated": "2024-06-19T12:53:42.172+00:00"
  },
  "type": "searchset",
  "total": 1,
  "link": [
    {
      "relation": "self",
      "url": "http://localhost:9090/fhir/ServiceRequest?_id=27&_include=ServiceRequest%3Arequester&_include=ServiceRequest%3Aperformer&_include=ServiceRequest%3Apatient"
    }
  ],
  "entry": [
    {
      "fullUrl": "http://localhost:9090/fhir/ServiceRequest/27",
      "resource": {
        "resourceType": "ServiceRequest",
        "id": "27",
        "meta": {
          "versionId": "2",
          "lastUpdated": "2024-06-19T12:32:59.160+00:00",
          "source": "#ijLwpimNo6Y2g2j7"
        },
        "status": "active",
        "intent": "order",
        "code": {
          "coding": [
            {
              "system": "http://snomed.info/sct",
              "code": "719858009",
              "display": "monitoren via telegeneeskunde (regime/therapie)"
            }
          ]
        },
        "subject": {
          "reference": "Patient/25"
        },
        "requester": {
          "reference": "Organization/9"
        },
        "performer": [
          {
            "reference": "Organization/3"
          }
        ],
        "reasonReference": [
          {
            "reference": "Condition/26"
          }
        ]
      },
      "search": {
        "mode": "match"
      }
    },
    {
      "fullUrl": "http://localhost:9090/fhir/Organization/3",
      "resource": {
        "resourceType": "Organization",
        "id": "3",
        "meta": {
          "versionId": "1",
          "lastUpdated": "2024-06-19T12:04:33.396+00:00",
          "source": "#dv3euzonvtGyVEKi"
        },
        "identifier": [
          {
            "system": "http://example.org/identifiers",
            "value": "URA-001"
          }
        ],
        "name": "Zorg Bij Jou - Service Center"
      },
      "search": {
        "mode": "include"
      }
    },
    {
      "fullUrl": "http://localhost:9090/fhir/Patient/25",
      "resource": {
        "resourceType": "Patient",
        "id": "25",
        "meta": {
          "versionId": "1",
          "lastUpdated": "2024-06-19T12:32:55.156+00:00",
          "source": "#5jYrocdf8y3VKKnq"
        },
        "identifier": [
          {
            "use": "usual",
            "system": "http://fhir.nl/fhir/NamingSystem/bsn",
            "value": "111222333"
          }
        ],
        "name": [
          {
            "text": "anders, hans",
            "family": "anders",
            "given": [
              "hans"
            ]
          }
        ],
        "gender": "male",
        "birthDate": "1980-01-01"
      },
      "search": {
        "mode": "include"
      }
    },
    {
      "fullUrl": "http://localhost:9090/fhir/Organization/9",
      "resource": {
        "resourceType": "Organization",
        "id": "9",
        "meta": {
          "versionId": "1",
          "lastUpdated": "2024-06-19T12:08:32.584+00:00",
          "source": "#cat6OPCOYsKmBODL"
        },
        "identifier": [
          {
            "system": "http://example.org/identifiers",
            "value": "URA-002"
          }
        ],
        "name": "St. Antonius"
      },
      "search": {
        "mode": "include"
      }
    }
  ]
}